SpectraSuite Data File
++++++++++++++++++++++++++++++++++++
Date: Tue Jun 16 16:55:12 CEST 2015
User: root
Dark Spectrum Present: No
Reference Spectrum Present: No
Number of Sampled Component Spectra: 1
Spectrometers: USB2G14742
Integration Time (usec): 3000 (USB2G14742)
Spectra Averaged: 5 (USB2G14742)
Boxcar Smoothing: 0 (USB2G14742)
Correct for Electrical Dark: Yes (USB2G14742)
Strobe/Lamp Enabled: No (USB2G14742)
Correct for Detector Non-linearity: Yes (USB2G14742)
Correct for Stray Light: No (USB2G14742)
Number of Pixels in Processed Spectrum: 2048
>>>>>Begin Processed Spectral Data<<<<<
339.47	-7.83
339.86	-7.83
340.24	-7.17
340.63	-3.88
341.01	-3.66
341.39	-2.35
341.78	-0.60
342.16	-0.60
342.55	-0.60
342.93	0.28
343.32	1.37
343.70	2.03
344.09	0.28
344.47	-0.16
344.85	2.91
345.24	2.47
345.62	1.81
346.01	1.59
346.39	0.94
346.77	0.72
347.16	0.50
347.54	0.94
347.93	1.15
348.31	1.59
348.69	1.59
349.08	2.47
349.46	3.56
349.84	4.66
350.23	3.78
350.61	4.87
350.99	2.91
351.38	2.91
351.76	3.34
352.14	4.22
352.53	5.53
352.91	4.44
353.29	3.56
353.68	4.87
354.06	5.09
354.44	6.19
354.83	6.41
355.21	6.19
355.59	5.31
355.97	5.53
356.36	6.62
356.74	6.84
357.12	5.75
357.51	6.41
357.89	5.97
358.27	5.97
358.65	7.50
359.04	7.72
359.42	7.06
359.80	6.84
360.18	7.50
360.57	7.94
360.95	9.25
361.33	9.47
361.71	8.15
362.10	9.03
362.48	10.12
362.86	9.69
363.24	9.90
363.62	10.78
364.01	9.25
364.39	9.25
364.77	9.47
365.15	11.22
365.53	12.96
365.91	13.40
366.30	15.58
366.68	15.15
367.06	12.96
367.44	14.93
367.82	13.84
368.20	13.84
368.59	14.49
368.97	17.33
369.35	18.20
369.73	17.77
370.11	18.64
370.49	19.08
370.87	16.68
371.25	19.95
371.64	21.91
372.02	17.77
372.40	19.73
372.78	19.51
373.16	19.95
373.54	20.17
373.92	20.61
374.30	20.17
374.68	21.04
375.06	21.91
375.44	24.10
375.82	22.79
376.21	24.53
376.59	28.67
376.97	28.46
377.35	30.64
377.73	30.42
378.11	32.81
378.49	33.25
378.87	33.90
379.25	33.68
379.63	33.25
380.01	35.86
380.39	35.64
380.77	36.08
381.15	35.86
381.53	35.43
381.91	33.25
382.29	33.25
382.67	28.46
383.05	31.07
383.43	29.55
383.81	32.81
384.19	33.90
384.57	38.04
384.95	42.17
385.33	45.22
385.71	43.48
386.08	42.17
386.46	48.26
386.84	47.17
387.22	47.17
387.60	48.48
387.98	50.22
388.36	50.22
388.74	53.47
389.12	55.21
389.50	59.55
389.88	64.32
390.26	66.05
390.63	68.22
391.01	70.17
391.39	76.02
391.77	70.60
392.15	65.84
392.53	56.51
392.91	51.95
393.29	46.30
393.66	48.48
394.04	56.95
394.42	63.67
394.80	72.77
395.18	73.85
395.56	77.75
395.93	76.23
396.31	66.49
396.69	62.80
397.07	66.70
397.45	69.30
397.83	87.69
398.20	95.47
398.58	106.68
398.96	114.22
399.34	120.03
399.72	123.69
400.09	124.76
400.47	128.84
400.85	137.43
401.23	138.29
401.60	141.94
401.98	140.01
402.36	146.44
402.74	153.94
403.11	144.73
403.49	147.30
403.87	144.08
404.25	150.73
404.62	149.87
405.00	147.73
405.38	152.87
405.75	153.30
406.13	150.94
406.51	151.80
406.89	157.58
407.26	159.51
407.64	166.78
408.02	171.05
408.39	170.84
408.77	178.53
409.15	187.06
409.52	173.62
409.90	171.48
410.28	175.75
410.65	181.73
411.03	188.34
411.41	198.14
411.78	200.06
412.16	201.55
412.54	206.66
412.91	202.40
413.29	206.87
413.66	214.74
414.04	210.27
414.42	210.70
414.79	214.53
415.17	217.50
415.54	218.78
415.92	220.90
416.30	220.26
416.67	227.06
417.05	222.39
417.42	214.31
417.80	220.26
418.18	224.51
418.55	218.56
418.93	220.69
419.30	233.84
419.68	223.87
420.05	238.08
420.43	230.88
420.80	257.35
421.18	258.20
421.55	249.73
421.93	249.10
422.30	251.64
422.68	242.11
423.06	251.22
423.43	254.18
423.81	253.33
424.18	258.41
424.56	261.58
424.93	262.64
425.30	260.73
425.68	271.93
426.05	272.77
426.43	272.14
426.80	263.48
427.18	270.87
427.55	255.87
427.93	270.45
428.30	280.16
428.68	265.17
429.05	256.29
429.43	258.62
429.80	251.00
430.17	234.06
430.55	230.88
430.92	235.54
431.30	265.38
431.67	290.28
432.04	294.28
432.42	305.02
432.79	322.88
433.17	327.92
433.54	317.42
433.91	315.74
434.29	320.15
434.66	334.00
435.03	337.14
435.41	345.53
435.78	354.11
436.16	375.84
436.53	364.15
436.90	375.22
437.28	362.06
437.65	359.55
438.02	351.39
438.40	341.96
438.77	363.31
439.14	370.83
439.52	376.47
439.89	374.59
440.26	379.39
440.63	392.74
441.01	402.53
441.38	412.52
441.75	418.13
442.13	419.38
442.50	418.34
442.87	412.73
443.24	415.64
443.62	426.24
443.99	437.86
444.36	447.40
444.73	426.65
445.11	427.69
445.48	421.87
445.85	424.57
446.22	434.54
446.60	452.79
446.97	460.03
447.34	463.97
447.71	469.76
448.09	476.17
448.46	463.14
448.83	495.58
449.20	457.76
449.57	479.06
449.95	487.94
450.32	498.26
450.69	508.15
451.06	506.51
451.43	525.45
451.80	510.63
452.18	491.66
452.55	483.19
452.92	492.28
453.29	496.61
453.66	495.78
454.03	513.51
454.40	535.32
454.78	510.21
455.15	519.48
455.52	527.92
455.89	531.41
456.26	524.83
456.63	533.47
457.00	524.01
457.37	534.49
457.74	536.55
458.12	540.45
458.49	518.04
458.86	531.62
459.23	546.61
459.60	528.12
459.97	545.59
460.34	543.94
460.71	565.07
461.08	578.80
461.45	559.54
461.82	569.17
462.19	588.82
462.56	575.93
462.93	578.39
463.30	557.69
463.67	547.23
464.04	566.71
464.41	569.38
464.78	563.84
465.15	562.00
465.52	567.12
465.89	576.54
466.26	578.80
466.63	557.28
467.00	573.68
467.37	592.71
467.74	595.16
468.11	590.66
468.48	586.98
468.85	608.03
469.22	620.07
469.59	607.62
469.96	596.79
470.33	601.29
470.70	606.39
471.07	628.83
471.44	624.14
471.81	634.13
472.18	637.79
472.55	645.93
472.91	656.10
473.28	623.53
473.65	647.15
474.02	652.85
474.39	673.37
474.76	680.47
475.13	699.12
475.50	694.25
475.87	675.80
476.23	709.04
476.60	707.21
476.97	687.16
477.34	725.21
477.71	721.78
478.08	714.50
478.45	714.09
478.81	746.41
479.18	746.61
479.55	759.11
479.92	763.95
480.29	782.07
480.65	774.02
481.02	773.01
481.39	760.93
481.76	800.36
482.13	810.80
482.49	790.31
482.86	801.96
483.23	806.58
483.60	808.59
483.97	789.10
484.33	794.73
484.70	803.57
485.07	797.74
485.44	761.53
485.80	735.31
486.17	704.99
486.54	718.95
486.91	731.07
487.27	754.08
487.64	777.64
488.01	809.59
488.38	804.57
488.74	821.83
489.11	815.21
489.48	830.45
489.84	855.47
490.21	852.07
490.58	859.47
490.94	861.27
491.31	842.87
491.68	836.06
492.04	825.84
492.41	832.25
492.78	852.87
493.14	863.87
493.51	853.67
493.88	858.07
494.24	863.27
494.61	884.64
494.98	887.23
495.34	880.45
495.71	874.66
496.08	883.24
496.44	897.01
496.81	890.03
497.17	892.82
497.54	876.86
497.91	861.27
498.27	866.67
498.64	861.07
499.00	874.66
499.37	869.86
499.74	863.87
500.10	857.47
500.47	840.26
500.83	844.47
501.20	827.84
501.56	821.23
501.93	824.64
502.30	842.07
502.66	845.47
503.03	852.87
503.39	837.06
503.76	832.85
504.12	827.04
504.49	830.05
504.85	848.27
505.22	860.87
505.58	873.46
505.95	879.05
506.31	874.46
506.68	873.26
507.04	851.67
507.41	854.47
507.77	845.67
508.14	845.47
508.50	849.47
508.87	867.07
509.23	860.87
509.59	858.27
509.96	862.47
510.32	855.47
510.69	855.07
511.05	858.47
511.42	864.67
511.78	870.66
512.15	863.27
512.51	854.27
512.87	846.27
513.24	839.86
513.60	838.66
513.97	830.05
514.33	825.04
514.69	836.26
515.06	831.05
515.42	834.25
515.79	836.46
516.15	812.80
516.51	782.27
516.88	753.07
517.24	744.80
517.60	754.08
517.97	757.70
518.33	755.49
518.69	764.55
519.06	776.03
519.42	799.55
519.78	810.80
520.15	817.82
520.51	821.83
520.87	827.24
521.24	842.47
521.60	840.06
521.96	843.07
522.33	833.45
522.69	825.64
523.05	814.61
523.41	830.05
523.78	849.47
524.14	851.07
524.50	845.07
524.86	853.47
525.23	845.07
525.59	839.66
525.95	834.66
526.32	805.78
526.68	779.65
527.04	771.80
527.40	792.52
527.76	799.75
528.13	824.23
528.49	821.03
528.85	845.27
529.21	849.07
529.57	849.07
529.94	842.87
530.30	847.07
530.66	853.47
531.02	857.87
531.38	848.27
531.75	846.87
532.11	832.25
532.47	817.62
532.83	806.58
533.19	812.80
533.55	822.43
533.92	825.24
534.28	829.65
534.64	826.64
535.00	840.06
535.36	845.07
535.72	859.67
536.08	848.47
536.44	831.45
536.81	833.25
537.17	824.64
537.53	827.04
537.89	827.64
538.25	832.45
538.61	823.63
538.97	817.42
539.33	812.00
539.69	803.17
540.05	786.09
540.41	789.91
540.78	784.28
541.14	784.68
541.50	797.95
541.86	795.74
542.22	802.77
542.58	797.54
542.94	794.73
543.30	793.32
543.66	793.73
544.02	796.34
544.38	804.97
544.74	798.75
545.10	804.17
545.46	802.36
545.82	799.75
546.18	805.58
546.54	801.76
546.90	793.93
547.26	786.09
547.62	786.49
547.98	776.23
548.34	785.48
548.70	792.92
549.06	785.48
549.42	791.52
549.78	788.70
550.13	793.12
550.49	780.86
550.85	787.09
551.21	778.85
551.57	784.48
551.93	781.06
552.29	778.04
552.65	778.24
553.01	771.80
553.37	768.18
553.73	785.08
554.09	784.08
554.44	779.65
554.80	781.46
555.16	785.08
555.52	781.86
555.88	773.41
556.24	763.35
556.60	752.26
556.95	742.38
557.31	752.26
557.67	736.12
558.03	733.70
558.39	741.97
558.75	724.00
559.10	719.55
559.46	718.95
559.82	714.70
560.18	735.11
560.54	741.37
560.90	747.62
561.25	733.29
561.61	726.63
561.97	724.20
562.33	730.47
562.68	733.90
563.04	738.54
563.40	733.90
563.76	720.16
564.12	730.87
564.47	734.91
564.83	728.04
565.19	710.86
565.55	710.65
565.90	710.05
566.26	708.63
566.62	709.85
566.97	706.61
567.33	716.72
567.69	707.62
568.05	703.17
568.40	699.12
568.76	688.58
569.12	695.07
569.47	687.36
569.83	678.85
570.19	682.90
570.54	675.80
570.90	673.57
571.26	679.05
571.61	677.22
571.97	682.29
572.33	693.04
572.68	694.25
573.04	693.24
573.40	689.39
573.75	693.24
574.11	691.42
574.47	686.15
574.82	683.11
575.18	672.35
575.53	680.47
575.89	671.34
576.25	671.74
576.60	669.51
576.96	678.04
577.31	675.80
577.67	673.57
578.03	662.61
578.38	658.54
578.74	665.86
579.09	669.71
579.45	673.16
579.80	678.85
580.16	672.76
580.51	674.59
580.87	672.35
581.23	678.64
581.58	677.63
581.94	685.54
582.29	686.35
582.65	684.12
583.00	694.05
583.36	688.18
583.71	682.50
584.07	679.46
584.42	679.86
584.78	676.82
585.13	662.20
585.49	665.25
585.84	657.73
586.20	652.65
586.55	653.26
586.91	652.04
587.26	651.63
587.61	636.16
587.97	624.14
588.32	603.33
588.68	574.91
589.03	555.85
589.39	546.00
589.74	548.05
590.09	557.28
590.45	567.94
590.80	576.34
591.16	577.16
591.51	578.18
591.86	576.14
592.22	577.16
592.57	586.16
592.93	590.05
593.28	583.30
593.63	585.75
593.99	575.11
594.34	567.74
594.69	574.29
595.05	572.45
595.40	575.93
595.76	581.46
596.11	588.62
596.46	583.71
596.82	585.75
597.17	585.75
597.52	584.32
597.87	584.73
598.23	578.59
598.58	579.21
598.93	591.48
599.29	591.68
599.64	581.87
599.99	587.80
600.35	583.71
600.70	589.03
601.05	586.98
601.40	583.50
601.76	583.50
602.11	579.62
602.46	579.82
602.81	583.71
603.17	586.98
603.52	593.52
603.87	591.68
604.22	595.16
604.58	585.55
604.93	596.18
605.28	588.41
605.63	586.98
605.98	575.11
606.34	586.78
606.69	577.77
607.04	579.41
607.39	584.12
607.74	577.98
608.10	570.20
608.45	575.32
608.80	567.33
609.15	572.65
609.50	572.24
609.85	561.59
610.21	568.97
610.56	558.92
610.91	563.64
611.26	564.66
611.61	563.84
611.96	559.54
612.31	555.03
612.67	558.10
613.02	553.80
613.37	546.82
613.72	542.30
614.07	542.92
614.42	553.18
614.77	550.31
615.12	549.90
615.47	539.84
615.82	535.73
616.17	532.85
616.53	525.45
616.88	531.00
617.23	536.14
617.58	532.85
617.93	535.32
618.28	536.55
618.63	544.15
618.98	533.67
619.33	540.66
619.68	538.81
620.03	541.07
620.38	544.35
620.73	539.43
621.08	535.32
621.43	537.58
621.78	534.08
622.13	536.34
622.48	533.06
622.83	530.38
623.18	528.53
623.53	521.95
623.88	514.54
624.23	513.72
624.58	510.63
624.93	508.98
625.28	509.60
625.63	505.47
625.98	502.18
626.32	508.77
626.67	505.27
627.02	502.59
627.37	499.70
627.72	491.86
628.07	487.32
628.42	487.94
628.77	493.93
629.12	484.23
629.47	480.71
629.82	481.95
630.16	480.92
630.51	479.47
630.86	483.19
631.21	480.30
631.56	479.27
631.91	480.92
632.26	481.33
632.60	484.02
632.95	487.32
633.30	484.84
633.65	484.64
634.00	478.44
634.35	481.75
634.69	487.53
635.04	484.64
635.39	487.53
635.74	486.08
636.09	477.20
636.43	485.46
636.78	478.85
637.13	481.54
637.48	483.61
637.83	487.74
638.17	480.92
638.52	486.08
638.87	481.13
639.22	478.85
639.56	473.07
639.91	470.59
640.26	470.79
640.61	470.59
640.95	467.69
641.30	462.31
641.65	464.59
642.00	460.86
642.34	461.07
642.69	458.17
643.04	462.93
643.38	461.48
643.73	458.17
644.08	459.62
644.43	450.72
644.77	448.23
645.12	444.70
645.47	443.67
645.81	435.58
646.16	430.80
646.51	422.91
646.85	419.59
647.20	410.02
647.54	411.89
647.89	406.49
648.24	405.24
648.58	403.99
648.93	400.45
649.28	395.45
649.62	395.66
649.97	407.73
650.31	411.48
650.66	415.01
651.01	410.85
651.35	403.36
651.70	400.86
652.04	404.20
652.39	406.90
652.74	405.03
653.08	409.61
653.43	403.78
653.77	404.40
654.12	402.32
654.46	397.32
654.81	390.45
655.15	378.77
655.50	366.03
655.85	353.06
656.19	345.11
656.54	340.50
656.88	349.92
657.23	359.97
657.57	368.53
657.92	374.80
658.26	378.14
658.61	384.40
658.95	386.28
659.30	384.82
659.64	391.70
659.98	388.36
660.33	389.61
660.67	388.99
661.02	389.61
661.36	390.45
661.71	393.37
662.05	395.03
662.40	390.86
662.74	392.95
663.09	383.98
663.43	384.19
663.77	387.53
664.12	382.52
664.46	383.57
664.81	387.53
665.15	380.85
665.49	377.51
665.84	377.51
666.18	382.31
666.53	375.84
666.87	376.05
667.21	373.55
667.56	371.88
667.90	371.46
668.24	370.83
668.59	370.21
668.93	369.79
669.27	373.13
669.62	366.24
669.96	370.62
670.30	365.82
670.65	365.82
670.99	365.61
671.33	359.55
671.68	359.34
672.02	360.80
672.36	359.34
672.71	357.87
673.05	361.01
673.39	353.48
673.73	357.04
674.08	356.62
674.42	357.46
674.76	351.60
675.11	354.53
675.45	351.81
675.79	353.06
676.13	349.50
676.48	346.99
676.82	348.46
677.16	344.06
677.50	348.04
677.84	348.25
678.19	347.62
678.53	343.64
678.87	343.64
679.21	337.35
679.55	343.85
679.90	342.17
680.24	345.11
680.58	341.13
680.92	337.14
681.26	341.54
681.61	335.05
681.95	335.68
682.29	336.31
682.63	335.47
682.97	331.69
683.31	329.38
683.65	320.99
684.00	324.56
684.34	326.66
684.68	328.76
685.02	322.67
685.36	321.41
685.70	315.95
686.04	310.48
686.38	281.22
686.73	260.10
687.07	239.36
687.41	240.63
687.75	238.51
688.09	248.04
688.43	256.08
688.77	250.79
689.11	250.37
689.45	252.06
689.79	256.50
690.13	259.04
690.47	265.81
690.81	263.90
691.15	267.71
691.49	268.97
691.83	269.82
692.17	264.33
692.51	263.69
692.85	269.40
693.19	256.08
693.53	261.37
693.87	254.60
694.21	249.31
694.55	250.16
694.89	250.37
695.23	251.64
695.57	253.54
695.91	254.60
696.25	265.59
696.59	270.24
696.93	272.35
697.27	271.51
697.61	268.55
697.95	267.07
698.29	265.81
698.63	260.31
698.97	258.83
699.31	252.06
699.65	251.64
699.99	247.41
700.32	247.19
700.66	239.78
701.00	246.35
701.34	241.48
701.68	242.32
702.02	237.66
702.36	238.93
702.70	246.35
703.04	247.19
703.37	247.83
703.71	246.98
704.05	245.71
704.39	252.49
704.73	249.10
705.07	249.10
705.40	244.44
705.74	243.81
706.08	246.98
706.42	248.89
706.76	243.81
707.10	241.90
707.43	242.11
707.77	243.59
708.11	243.17
708.45	243.17
708.78	244.02
709.12	242.11
709.46	240.84
709.80	239.14
710.14	241.90
710.47	246.13
710.81	243.81
711.15	234.27
711.49	239.99
711.82	241.48
712.16	236.81
712.50	234.27
712.83	229.81
713.17	232.57
713.51	233.00
713.85	229.81
714.18	227.69
714.52	222.17
714.86	218.56
715.19	222.39
715.53	220.26
715.87	206.87
716.20	196.87
716.54	187.70
716.88	171.91
717.21	165.28
717.55	156.51
717.89	149.23
718.22	147.08
718.56	140.01
718.90	132.07
719.23	135.50
719.57	131.85
719.91	132.28
720.24	134.43
720.58	141.29
720.91	154.58
721.25	163.57
721.59	168.70
721.92	178.95
722.26	175.54
722.59	170.20
722.93	165.49
723.27	160.36
723.60	157.58
723.94	153.73
724.27	142.15
724.61	151.37
724.94	144.94
725.28	142.80
725.61	138.93
725.95	143.65
726.28	146.23
726.62	144.51
726.96	147.51
727.29	143.01
727.63	142.37
727.96	143.01
728.30	144.73
728.63	144.08
728.97	142.80
729.30	142.80
729.63	141.72
729.97	141.51
730.30	144.51
730.64	142.80
730.97	146.01
731.31	145.15
731.64	149.23
731.98	158.86
732.31	159.08
732.65	162.93
732.98	170.20
733.31	173.40
733.65	173.40
733.98	178.10
734.32	175.32
734.65	177.67
734.98	178.74
735.32	174.04
735.65	172.76
735.99	171.48
736.32	170.84
736.65	168.27
736.99	174.26
737.32	178.74
737.66	174.26
737.99	178.10
738.32	175.97
738.66	174.90
738.99	175.97
739.32	174.26
739.66	172.97
739.99	174.47
740.32	176.18
740.66	178.10
740.99	177.03
741.32	178.53
741.65	174.90
741.99	174.90
742.32	180.66
742.65	179.38
742.99	181.52
743.32	184.29
743.65	181.73
743.98	183.01
744.32	183.44
744.65	182.16
744.98	181.94
745.32	181.09
745.65	181.30
745.98	182.16
746.31	180.88
746.64	179.38
746.98	181.73
747.31	180.45
747.64	181.30
747.97	182.16
748.31	174.26
748.64	180.66
748.97	176.18
749.30	177.25
749.63	178.74
749.96	176.39
750.30	175.97
750.63	177.25
750.96	171.91
751.29	175.32
751.62	173.19
751.95	172.55
752.29	167.63
752.62	170.20
752.95	171.48
753.28	168.70
753.61	172.76
753.94	171.48
754.27	170.41
754.60	168.92
754.94	168.27
755.27	166.35
755.60	166.56
755.93	166.56
756.26	166.14
756.59	167.42
756.92	164.85
757.25	166.78
757.58	161.86
757.91	161.43
758.24	159.08
758.57	155.01
758.90	143.44
759.24	123.69
759.57	101.94
759.90	76.45
760.23	62.37
760.56	49.78
760.89	47.39
761.22	48.04
761.55	55.21
761.88	56.95
762.21	60.63
762.54	55.43
762.87	55.21
763.20	56.95
763.53	56.73
763.86	62.15
764.19	65.84
764.52	68.00
764.85	72.99
765.17	81.86
765.50	85.75
765.83	93.74
766.16	96.11
766.49	106.04
766.82	110.56
767.15	114.00
767.48	124.55
767.81	125.62
768.14	130.56
768.47	129.70
768.80	132.92
769.13	136.14
769.45	140.22
769.78	139.79
770.11	138.93
770.44	137.43
770.77	138.08
771.10	139.79
771.43	138.29
771.75	138.72
772.08	137.86
772.41	141.94
772.74	139.58
773.07	137.00
773.40	140.01
773.73	137.22
774.05	135.50
774.38	132.50
774.71	134.43
775.04	132.50
775.37	134.86
775.69	131.42
776.02	133.14
776.35	132.28
776.68	134.00
777.00	129.70
777.33	135.29
777.66	127.98
777.99	125.62
778.32	127.34
778.64	125.62
778.97	129.70
779.30	123.04
779.62	127.77
779.95	119.60
780.28	124.33
780.61	121.32
780.93	120.89
781.26	125.41
781.59	119.60
781.92	122.18
782.24	120.24
782.57	118.52
782.90	117.02
783.22	117.66
783.55	119.38
783.88	118.31
784.20	116.80
784.53	116.37
784.86	117.66
785.18	113.79
785.51	115.08
785.84	114.22
786.16	114.22
786.49	110.56
786.81	111.21
787.14	109.70
787.47	109.70
787.79	105.17
788.12	106.47
788.44	105.39
788.77	104.53
789.10	99.14
789.42	98.92
789.75	99.57
790.07	102.15
790.40	101.51
790.73	101.08
791.05	99.14
791.38	95.47
791.70	96.11
792.03	98.27
792.35	98.92
792.68	95.04
793.00	99.78
793.33	100.21
793.65	100.21
793.98	100.86
794.30	96.33
794.63	96.98
794.95	94.60
795.28	98.06
795.60	95.90
795.93	92.01
796.25	97.63
796.58	97.19
796.90	94.60
797.23	90.72
797.55	93.74
797.88	95.25
798.20	96.33
798.53	91.80
798.85	90.72
799.17	92.88
799.50	92.88
799.82	89.85
800.15	89.85
800.47	89.64
800.80	87.48
801.12	88.34
801.44	85.96
801.77	89.21
802.09	86.83
802.42	85.10
802.74	80.56
803.06	85.10
803.39	88.13
803.71	84.88
804.03	84.67
804.36	84.02
804.68	84.02
805.00	81.86
805.33	85.32
805.65	84.45
805.97	84.67
806.30	86.61
806.62	84.02
806.94	82.29
807.27	85.96
807.59	85.75
807.91	79.48
808.24	79.26
808.56	81.86
808.88	75.58
809.21	80.34
809.53	80.99
809.85	76.88
810.17	75.37
810.50	76.23
810.82	75.15
811.14	72.77
811.46	71.04
811.79	69.30
812.11	70.82
812.43	66.27
812.75	65.40
813.07	61.28
813.40	61.07
813.72	59.98
814.04	56.73
814.36	58.25
814.69	53.47
815.01	49.13
815.33	48.48
815.65	50.65
815.97	48.91
816.29	47.61
816.62	48.04
816.94	46.30
817.26	48.26
817.58	49.35
817.90	43.69
818.22	43.91
818.54	48.69
818.87	47.61
819.19	48.69
819.51	47.61
819.83	46.30
820.15	51.52
820.47	56.08
820.79	52.60
821.11	53.04
821.43	53.69
821.76	51.74
822.08	50.43
822.40	46.30
822.72	44.78
823.04	41.96
823.36	42.61
823.68	41.96
824.00	49.56
824.32	51.08
824.64	52.60
824.96	53.04
825.28	55.43
825.60	50.43
825.92	49.78
826.24	52.39
826.56	53.26
826.88	53.47
827.20	50.00
827.52	47.83
827.84	47.61
828.16	47.39
828.48	47.17
828.80	46.09
829.12	48.91
829.44	49.13
829.76	50.00
830.08	50.00
830.40	45.65
830.72	49.35
831.04	49.35
831.36	49.35
831.68	49.13
832.00	48.91
832.31	49.13
832.63	46.96
832.95	50.22
833.27	50.22
833.59	48.69
833.91	50.65
834.23	50.00
834.55	50.87
834.87	51.08
835.19	51.52
835.50	49.56
835.82	55.64
836.14	52.39
836.46	54.78
836.78	52.60
837.10	54.56
837.41	51.30
837.73	51.74
838.05	52.17
838.37	50.87
838.69	52.82
839.01	52.17
839.32	52.60
839.64	54.99
839.96	50.87
840.28	52.60
840.60	55.64
840.91	52.82
841.23	56.73
841.55	51.95
841.87	50.65
842.18	53.47
842.50	55.21
842.82	53.26
843.14	53.04
843.45	53.26
843.77	54.12
844.09	52.39
844.41	52.17
844.72	52.82
845.04	53.26
845.36	52.60
845.67	53.47
845.99	51.52
846.31	54.34
846.63	50.87
846.94	52.60
847.26	51.30
847.58	54.78
847.89	52.60
848.21	52.39
848.53	52.17
848.84	51.08
849.16	53.04
849.48	47.61
849.79	50.65
850.11	51.95
850.42	48.04
850.74	49.56
851.06	49.78
851.37	50.43
851.69	49.56
852.00	50.43
852.32	49.35
852.64	46.74
852.95	49.13
853.27	49.13
853.58	46.74
853.90	45.65
854.22	40.87
854.53	44.13
854.85	42.61
855.16	46.09
855.48	46.09
855.79	46.96
856.11	46.96
856.42	46.52
856.74	46.74
857.05	46.09
857.37	45.87
857.68	46.52
858.00	50.00
858.31	46.74
858.63	46.74
858.94	48.26
859.26	47.83
859.57	44.13
859.89	48.26
860.20	46.74
860.52	47.83
860.83	45.22
861.15	44.13
861.46	46.96
861.78	43.48
862.09	44.56
862.41	44.78
862.72	45.00
863.03	45.65
863.35	44.13
863.66	43.69
863.98	44.13
864.29	44.78
864.60	44.13
864.92	45.43
865.23	42.83
865.55	42.17
865.86	40.21
866.17	41.96
866.49	40.65
866.80	39.78
867.11	40.65
867.43	37.60
867.74	39.78
868.06	41.74
868.37	42.39
868.68	43.91
869.00	43.04
869.31	42.83
869.62	41.30
869.93	40.43
870.25	41.09
870.56	39.56
870.87	41.52
871.19	40.87
871.50	39.34
871.81	41.09
872.13	39.34
872.44	39.78
872.75	41.09
873.06	39.78
873.38	40.65
873.69	40.21
874.00	38.26
874.31	39.78
874.63	39.13
874.94	35.21
875.25	39.56
875.56	40.43
875.87	38.26
876.19	34.99
876.50	34.99
876.81	34.12
877.12	36.30
877.43	36.95
877.75	34.77
878.06	35.86
878.37	34.99
878.68	35.64
878.99	33.68
879.30	34.12
879.62	33.90
879.93	34.99
880.24	36.52
880.55	34.34
880.86	34.77
881.17	34.34
881.48	34.12
881.80	33.68
882.11	34.77
882.42	32.60
882.73	33.90
883.04	33.47
883.35	32.60
883.66	32.81
883.97	32.60
884.28	33.03
884.59	34.77
884.90	33.25
885.21	34.12
885.53	31.72
885.84	32.16
886.15	32.60
886.46	34.56
886.77	31.07
887.08	31.07
887.39	30.85
887.70	32.38
888.01	30.42
888.32	30.64
888.63	31.29
888.94	30.85
889.25	32.38
889.56	31.51
889.87	31.94
890.18	30.42
890.49	28.67
890.80	28.89
891.11	30.20
891.42	30.42
891.73	30.42
892.04	29.76
892.34	31.07
892.65	29.98
892.96	26.06
893.27	27.15
893.58	28.02
893.89	26.49
894.20	27.37
894.51	26.71
894.82	27.15
895.13	25.84
895.44	23.22
895.74	23.22
896.05	23.88
896.36	21.91
896.67	20.82
896.98	19.51
897.29	19.51
897.60	18.42
897.91	19.51
898.21	20.82
898.52	19.51
898.83	17.77
899.14	18.64
899.45	17.33
899.76	16.89
900.06	18.20
900.37	18.64
900.68	18.42
900.99	17.99
901.30	15.37
901.60	15.58
901.91	16.24
902.22	15.80
902.53	15.37
902.83	18.20
903.14	19.73
903.45	20.61
903.76	20.39
904.06	20.39
904.37	20.82
904.68	20.61
904.99	20.61
905.29	22.13
905.60	18.64
905.91	21.04
906.22	17.33
906.52	19.73
906.83	18.20
907.14	16.02
907.44	14.71
907.75	15.80
908.06	16.46
908.36	16.24
908.67	16.46
908.98	13.40
909.28	14.71
909.59	14.93
909.90	12.31
910.20	14.06
910.51	13.62
910.82	15.37
911.12	14.93
911.43	14.06
911.73	15.15
912.04	16.24
912.35	16.02
912.65	16.46
912.96	15.15
913.26	12.96
913.57	12.96
913.88	13.40
914.18	13.40
914.49	13.40
914.79	14.06
915.10	12.31
915.40	12.53
915.71	11.43
916.02	11.87
916.32	12.74
916.63	14.93
916.93	14.93
917.24	12.09
917.54	11.43
917.85	11.43
918.15	12.31
918.46	14.06
918.76	14.49
919.07	14.06
919.37	13.84
919.68	15.15
919.98	14.27
920.29	15.58
920.59	14.93
920.90	17.11
921.20	16.46
921.50	14.71
921.81	12.74
922.11	15.15
922.42	15.58
922.72	15.80
923.03	14.71
923.33	14.06
923.63	14.93
923.94	12.74
924.24	13.62
924.55	12.74
924.85	15.37
925.15	13.40
925.46	14.93
925.76	14.06
926.07	12.31
926.37	13.18
926.67	12.74
926.98	12.31
927.28	12.96
927.58	12.53
927.89	13.18
928.19	13.40
928.49	9.90
928.80	10.56
929.10	11.43
929.40	9.03
929.71	8.59
930.01	8.59
930.31	6.62
930.62	9.25
930.92	9.03
931.22	9.03
931.52	7.06
931.83	6.19
932.13	5.97
932.43	7.28
932.73	7.94
933.04	7.94
933.34	6.19
933.64	4.87
933.94	4.87
934.25	5.09
934.55	3.78
934.85	5.09
935.15	4.44
935.45	5.97
935.76	4.44
936.06	3.56
936.36	2.69
936.66	4.66
936.96	5.97
937.27	5.09
937.57	5.09
937.87	4.22
938.17	4.00
938.47	5.09
938.77	5.09
939.08	4.00
939.38	4.87
939.68	4.00
939.98	4.22
940.28	5.97
940.58	6.19
940.88	5.31
941.18	4.87
941.49	5.09
941.79	5.53
942.09	5.09
942.39	3.78
942.69	4.44
942.99	4.00
943.29	4.66
943.59	4.44
943.89	4.87
944.19	4.44
944.49	5.97
944.79	4.44
945.09	4.66
945.39	6.41
945.70	5.09
946.00	2.03
946.30	3.56
946.60	4.66
946.90	5.31
947.20	5.09
947.50	4.22
947.80	5.31
948.10	5.75
948.40	5.31
948.70	5.53
949.00	4.22
949.30	4.87
949.59	4.87
949.89	4.00
950.19	4.66
950.49	4.87
950.79	4.44
951.09	5.53
951.39	4.87
951.69	5.31
951.99	4.44
952.29	4.00
952.59	4.66
952.89	5.31
953.19	3.78
953.49	3.34
953.78	5.09
954.08	6.41
954.38	4.87
954.68	5.53
954.98	5.75
955.28	3.78
955.58	3.34
955.88	5.53
956.17	4.22
956.47	5.53
956.77	3.56
957.07	3.12
957.37	4.22
957.67	4.66
957.96	4.22
958.26	5.53
958.56	6.62
958.86	6.19
959.16	5.97
959.45	4.44
959.75	4.44
960.05	4.87
960.35	5.75
960.64	5.53
960.94	5.53
961.24	3.34
961.54	5.09
961.83	5.75
962.13	4.87
962.43	5.31
962.73	6.19
963.02	5.75
963.32	4.22
963.62	5.31
963.92	6.84
964.21	3.78
964.51	5.97
964.81	6.41
965.10	5.53
965.40	3.78
965.70	5.31
965.99	5.97
966.29	6.19
966.59	4.87
966.88	3.78
967.18	5.31
967.48	5.53
967.77	5.75
968.07	5.97
968.37	5.97
968.66	5.97
968.96	5.53
969.25	5.97
969.55	4.44
969.85	5.97
970.14	6.62
970.44	7.28
970.73	7.28
971.03	6.84
971.33	6.41
971.62	6.41
971.92	6.62
972.21	6.41
972.51	5.53
972.80	6.62
973.10	7.72
973.40	6.62
973.69	7.72
973.99	5.97
974.28	6.84
974.58	6.62
974.87	6.62
975.17	4.87
975.46	6.41
975.76	5.75
976.05	5.75
976.35	5.75
976.64	4.66
976.94	5.09
977.23	6.19
977.53	5.75
977.82	6.84
978.11	5.75
978.41	6.62
978.70	6.84
979.00	5.09
979.29	7.50
979.59	5.53
979.88	5.97
980.18	5.75
980.47	4.00
980.76	4.22
981.06	4.66
981.35	6.84
981.65	7.06
981.94	6.19
982.23	5.31
982.53	5.75
982.82	6.41
983.11	5.31
983.41	5.53
983.70	5.53
984.00	4.44
984.29	6.19
984.58	5.97
984.88	5.75
985.17	5.53
985.46	6.84
985.76	5.97
986.05	5.09
986.34	5.75
986.63	4.22
986.93	4.44
987.22	6.62
987.51	8.15
987.81	4.66
988.10	5.97
988.39	5.09
988.68	5.97
988.98	5.31
989.27	6.62
989.56	7.06
989.85	7.06
990.15	7.28
990.44	6.62
990.73	6.84
991.02	4.22
991.32	4.22
991.61	4.87
991.90	5.53
992.19	5.31
992.48	5.53
992.78	6.19
993.07	6.41
993.36	5.53
993.65	6.62
993.94	6.19
994.23	5.31
994.53	6.19
994.82	5.53
995.11	3.78
995.40	3.12
995.69	4.00
995.98	4.66
996.27	6.41
996.57	4.44
996.86	4.87
997.15	6.62
997.44	6.41
997.73	5.75
998.02	5.09
998.31	5.75
998.60	6.41
998.89	5.31
999.18	5.75
999.48	4.87
999.77	5.75
1000.06	6.62
1000.35	7.94
1000.64	5.75
1000.93	3.56
1001.22	5.75
1001.51	4.87
1001.80	5.75
1002.09	5.97
1002.38	4.87
1002.67	4.87
1002.96	5.53
1003.25	5.75
1003.54	6.41
1003.83	2.91
1004.12	4.87
1004.41	5.31
1004.70	3.12
1004.99	3.78
1005.28	5.97
1005.57	4.87
1005.86	4.22
1006.15	5.09
1006.44	4.66
1006.72	3.56
1007.01	4.00
1007.30	5.97
1007.59	5.31
1007.88	5.75
1008.17	5.53
1008.46	5.31
1008.75	4.00
1009.04	4.00
1009.33	3.78
1009.62	4.87
1009.90	4.00
1010.19	2.69
1010.48	4.44
1010.77	4.66
1011.06	4.66
1011.35	4.87
1011.64	4.87
1011.92	5.53
1012.21	4.87
1012.50	4.87
1012.79	4.44
1013.08	4.66
1013.37	4.44
1013.65	3.56
1013.94	2.47
1014.23	2.91
1014.52	3.12
1014.80	4.00
1015.09	4.87
1015.38	4.44
1015.67	4.44
1015.96	4.66
1016.24	4.00
1016.53	4.22
1016.82	4.44
1017.11	5.97
1017.39	4.00
1017.68	5.53
1017.97	3.78
1018.25	3.34
1018.54	5.09
1018.83	5.31
1019.12	4.22
1019.40	3.78
1019.69	3.12
1019.98	3.56
1020.26	3.34
1020.55	3.78
1020.84	4.87
1021.12	3.56
1021.41	3.34
1021.70	4.22
1021.98	2.25
1022.27	2.25
1022.56	4.00
1022.84	3.12
1023.13	3.12
1023.42	3.78
1023.70	4.87
1023.99	5.09
1024.27	3.56
1024.56	2.47
1024.85	3.56
1025.13	5.75
1025.42	6.41
1025.70	4.00
1025.99	3.12
1026.27	4.00
1026.56	2.25
1026.85	1.81
1027.13	3.56
1027.42	3.78
1027.70	5.75
1027.99	4.44
1028.27	3.56
1028.56	3.34
1028.84	3.56
>>>>>End Processed Spectral Data<<<<<
